LabVIEW Measurement	
Writer_Version	2
Reader_Version	2
Separator	Tab
Decimal_Separator	.
Multi_Headings	Yes
X_Columns	One
Time_Pref	Absolute
Operator	Mechanical
Date	2019/02/21
Time	16:08:30.9810440911112771695
***End_of_Header***	
	
Channels	1	
Samples	2000	
Date	2019/02/21	
Time	16:08:30.9810440911112771695	
Y_Unit_Label	Volts	
X_Dimension	Time	
X0	0.0000000000000000E+0	
Delta_X	0.002000	
***End_of_Header***		
X_Value	Voltage	Comment
0.000000	-0.001141
0.002000	-0.001669
0.004000	-0.001442
0.006000	-0.000550
0.008000	0.000637
0.010000	0.001682
0.012000	0.002221
0.014000	0.001980
0.016000	0.001101
0.018000	-9.655952E-5
0.020000	-0.001167
0.022000	-0.001677
0.024000	-0.001426
0.026000	-0.000501
0.028000	0.000669
0.030000	0.001740
0.032000	0.002235
0.034000	0.001980
0.036000	0.001094
0.038000	-0.000124
0.040000	-0.001202
0.042000	-0.001720
0.044000	-0.001506
0.046000	-0.000609
0.048000	0.000607
0.050000	0.001702
0.052000	0.002220
0.054000	0.001998
0.056000	0.001093
0.058000	-0.000114
0.060000	-0.001197
0.062000	-0.001751
0.064000	-0.001513
0.066000	-0.000610
0.068000	0.000579
0.070000	0.001674
0.072000	0.002239
0.074000	0.002019
0.076000	0.001109
0.078000	-9.059906E-5
0.080000	-0.001143
0.082000	-0.001657
0.084000	-0.001414
0.086000	-0.000509
0.088000	0.000691
0.090000	0.001755
0.092000	0.002282
0.094000	0.002040
0.096000	0.001158
0.098000	-5.245209E-5
0.100000	-0.001129
0.102000	-0.001655
0.104000	-0.001446
0.106000	-0.000532
0.108000	0.000658
0.110000	0.001730
0.112000	0.002261
0.114000	0.002040
0.116000	0.001119
0.118000	-0.000117
0.120000	-0.001161
0.122000	-0.001667
0.124000	-0.001427
0.126000	-0.000539
0.128000	0.000652
0.130000	0.001712
0.132000	0.002233
0.134000	0.001990
0.136000	0.001078
0.138000	-0.000118
0.140000	-0.001187
0.142000	-0.001717
0.144000	-0.001472
0.146000	-0.000579
0.148000	0.000632
0.150000	0.001714
0.152000	0.002220
0.154000	0.001955
0.156000	0.001036
0.158000	-0.000122
0.160000	-0.001179
0.162000	-0.001675
0.164000	-0.001454
0.166000	-0.000533
0.168000	0.000725
0.170000	0.001774
0.172000	0.002265
0.174000	0.002018
0.176000	0.001106
0.178000	-8.702278E-5
0.180000	-0.001127
0.182000	-0.001650
0.184000	-0.001439
0.186000	-0.000535
0.188000	0.000681
0.190000	0.001743
0.192000	0.002247
0.194000	0.002021
0.196000	0.001122
0.198000	-0.000105
0.200000	-0.001156
0.202000	-0.001620
0.204000	-0.001397
0.206000	-0.000489
0.208000	0.000694
0.210000	0.001739
0.212000	0.002242
0.214000	0.001980
0.216000	0.001103
0.218000	-0.000107
0.220000	-0.001189
0.222000	-0.001669
0.224000	-0.001427
0.226000	-0.000519
0.228000	0.000689
0.230000	0.001765
0.232000	0.002232
0.234000	0.001944
0.236000	0.001031
0.238000	-0.000156
0.240000	-0.001208
0.242000	-0.001682
0.244000	-0.001419
0.246000	-0.000532
0.248000	0.000696
0.250000	0.001742
0.252000	0.002232
0.254000	0.001978
0.256000	0.001053
0.258000	-0.000147
0.260000	-0.001187
0.262000	-0.001693
0.264000	-0.001435
0.266000	-0.000492
0.268000	0.000708
0.270000	0.001756
0.272000	0.002260
0.274000	0.001968
0.276000	0.001065
0.278000	-0.000131
0.280000	-0.001174
0.282000	-0.001669
0.284000	-0.001408
0.286000	-0.000477
0.288000	0.000674
0.290000	0.001734
0.292000	0.002271
0.294000	0.002000
0.296000	0.001079
0.298000	-0.000126
0.300000	-0.001184
0.302000	-0.001690
0.304000	-0.001415
0.306000	-0.000511
0.308000	0.000684
0.310000	0.001760
0.312000	0.002259
0.314000	0.001992
0.316000	0.001075
0.318000	-0.000117
0.320000	-0.001162
0.322000	-0.001678
0.324000	-0.001450
0.326000	-0.000520
0.328000	0.000676
0.330000	0.001757
0.332000	0.002258
0.334000	0.001994
0.336000	0.001057
0.338000	-0.000161
0.340000	-0.001215
0.342000	-0.001694
0.344000	-0.001429
0.346000	-0.000534
0.348000	0.000697
0.350000	0.001768
0.352000	0.002259
0.354000	0.002002
0.356000	0.001054
0.358000	-0.000166
0.360000	-0.001215
0.362000	-0.001709
0.364000	-0.001423
0.366000	-0.000511
0.368000	0.000679
0.370000	0.001721
0.372000	0.002209
0.374000	0.001925
0.376000	0.000988
0.378000	-0.000200
0.380000	-0.001242
0.382000	-0.001743
0.384000	-0.001456
0.386000	-0.000521
0.388000	0.000687
0.390000	0.001740
0.392000	0.002196
0.394000	0.001929
0.396000	0.001013
0.398000	-0.000186
0.400000	-0.001214
0.402000	-0.001689
0.404000	-0.001441
0.406000	-0.000489
0.408000	0.000739
0.410000	0.001783
0.412000	0.002254
0.414000	0.001981
0.416000	0.001040
0.418000	-0.000151
0.420000	-0.001215
0.422000	-0.001701
0.424000	-0.001415
0.426000	-0.000499
0.428000	0.000731
0.430000	0.001785
0.432000	0.002228
0.434000	0.001968
0.436000	0.001038
0.438000	-0.000184
0.440000	-0.001230
0.442000	-0.001698
0.444000	-0.001413
0.446000	-0.000485
0.448000	0.000721
0.450000	0.001789
0.452000	0.002242
0.454000	0.001956
0.456000	0.001019
0.458000	-0.000161
0.460000	-0.001204
0.462000	-0.001687
0.464000	-0.001453
0.466000	-0.000535
0.468000	0.000690
0.470000	0.001744
0.472000	0.002266
0.474000	0.001991
0.476000	0.001034
0.478000	-0.000192
0.480000	-0.001221
0.482000	-0.001688
0.484000	-0.001417
0.486000	-0.000480
0.488000	0.000681
0.490000	0.001736
0.492000	0.002230
0.494000	0.001932
0.496000	0.001003
0.498000	-0.000182
0.500000	-0.001214
0.502000	-0.001700
0.504000	-0.001404
0.506000	-0.000483
0.508000	0.000701
0.510000	0.001768
0.512000	0.002236
0.514000	0.001980
0.516000	0.001055
0.518000	-0.000186
0.520000	-0.001251
0.522000	-0.001709
0.524000	-0.001451
0.526000	-0.000503
0.528000	0.000710
0.530000	0.001736
0.532000	0.002224
0.534000	0.001984
0.536000	0.001068
0.538000	-0.000166
0.540000	-0.001224
0.542000	-0.001689
0.544000	-0.001396
0.546000	-0.000442
0.548000	0.000721
0.550000	0.001748
0.552000	0.002215
0.554000	0.001937
0.556000	0.001014
0.558000	-0.000187
0.560000	-0.001215
0.562000	-0.001713
0.564000	-0.001433
0.566000	-0.000467
0.568000	0.000727
0.570000	0.001714
0.572000	0.002222
0.574000	0.001963
0.576000	0.001009
0.578000	-0.000179
0.580000	-0.001205
0.582000	-0.001684
0.584000	-0.001394
0.586000	-0.000468
0.588000	0.000716
0.590000	0.001768
0.592000	0.002259
0.594000	0.001957
0.596000	0.001044
0.598000	-0.000187
0.600000	-0.001236
0.602000	-0.001683
0.604000	-0.001394
0.606000	-0.000468
0.608000	0.000715
0.610000	0.001738
0.612000	0.002196
0.614000	0.001945
0.616000	0.001009
0.618000	-0.000187
0.620000	-0.001234
0.622000	-0.001718
0.624000	-0.001436
0.626000	-0.000486
0.628000	0.000724
0.630000	0.001743
0.632000	0.002196
0.634000	0.001932
0.636000	0.001005
0.638000	-0.000194
0.640000	-0.001230
0.642000	-0.001698
0.644000	-0.001403
0.646000	-0.000468
0.648000	0.000745
0.650000	0.001763
0.652000	0.002222
0.654000	0.001935
0.656000	0.000981
0.658000	-0.000204
0.660000	-0.001229
0.662000	-0.001682
0.664000	-0.001400
0.666000	-0.000495
0.668000	0.000720
0.670000	0.001789
0.672000	0.002264
0.674000	0.001943
0.676000	0.000974
0.678000	-0.000193
0.680000	-0.001218
0.682000	-0.001674
0.684000	-0.001370
0.686000	-0.000447
0.688000	0.000747
0.690000	0.001756
0.692000	0.002232
0.694000	0.001951
0.696000	0.001025
0.698000	-0.000197
0.700000	-0.001210
0.702000	-0.001670
0.704000	-0.001390
0.706000	-0.000454
0.708000	0.000722
0.710000	0.001754
0.712000	0.002210
0.714000	0.001909
0.716000	0.000987
0.718000	-0.000216
0.720000	-0.001265
0.722000	-0.001712
0.724000	-0.001403
0.726000	-0.000455
0.728000	0.000732
0.730000	0.001745
0.732000	0.002185
0.734000	0.001893
0.736000	0.000958
0.738000	-0.000246
0.740000	-0.001233
0.742000	-0.001676
0.744000	-0.001380
0.746000	-0.000449
0.748000	0.000737
0.750000	0.001798
0.752000	0.002249
0.754000	0.001934
0.756000	0.000986
0.758000	-0.000222
0.760000	-0.001281
0.762000	-0.001733
0.764000	-0.001442
0.766000	-0.000507
0.768000	0.000720
0.770000	0.001765
0.772000	0.002217
0.774000	0.001905
0.776000	0.000976
0.778000	-0.000254
0.780000	-0.001320
0.782000	-0.001777
0.784000	-0.001456
0.786000	-0.000461
0.788000	0.000745
0.790000	0.001777
0.792000	0.002259
0.794000	0.001978
0.796000	0.001012
0.798000	-0.000219
0.800000	-0.001240
0.802000	-0.001704
0.804000	-0.001392
0.806000	-0.000418
0.808000	0.000759
0.810000	0.001824
0.812000	0.002283
0.814000	0.001990
0.816000	0.001017
0.818000	-0.000191
0.820000	-0.001227
0.822000	-0.001668
0.824000	-0.001407
0.826000	-0.000464
0.828000	0.000749
0.830000	0.001773
0.832000	0.002238
0.834000	0.001926
0.836000	0.000988
0.838000	-0.000204
0.840000	-0.001258
0.842000	-0.001723
0.844000	-0.001446
0.846000	-0.000483
0.848000	0.000741
0.850000	0.001771
0.852000	0.002220
0.854000	0.001913
0.856000	0.000987
0.858000	-0.000200
0.860000	-0.001239
0.862000	-0.001651
0.864000	-0.001323
0.866000	-0.000372
0.868000	0.000817
0.870000	0.001826
0.872000	0.002310
0.874000	0.001991
0.876000	0.001012
0.878000	-0.000205
0.880000	-0.001224
0.882000	-0.001684
0.884000	-0.001380
0.886000	-0.000423
0.888000	0.000768
0.890000	0.001796
0.892000	0.002264
0.894000	0.001985
0.896000	0.001016
0.898000	-0.000196
0.900000	-0.001240
0.902000	-0.001687
0.904000	-0.001398
0.906000	-0.000457
0.908000	0.000743
0.910000	0.001761
0.912000	0.002241
0.914000	0.001951
0.916000	0.000992
0.918000	-0.000231
0.920000	-0.001271
0.922000	-0.001715
0.924000	-0.001388
0.926000	-0.000418
0.928000	0.000777
0.930000	0.001811
0.932000	0.002294
0.934000	0.001966
0.936000	0.000985
0.938000	-0.000215
0.940000	-0.001247
0.942000	-0.001715
0.944000	-0.001425
0.946000	-0.000478
0.948000	0.000724
0.950000	0.001748
0.952000	0.002209
0.954000	0.001911
0.956000	0.000945
0.958000	-0.000260
0.960000	-0.001295
0.962000	-0.001770
0.964000	-0.001439
0.966000	-0.000474
0.968000	0.000714
0.970000	0.001746
0.972000	0.002223
0.974000	0.001894
0.976000	0.000948
0.978000	-0.000246
0.980000	-0.001292
0.982000	-0.001721
0.984000	-0.001420
0.986000	-0.000465
0.988000	0.000753
0.990000	0.001787
0.992000	0.002221
0.994000	0.001920
0.996000	0.000966
0.998000	-0.000247
1.000000	-0.001266
1.002000	-0.001723
1.004000	-0.001422
1.006000	-0.000461
1.008000	0.000778
1.010000	0.001841
1.012000	0.002278
1.014000	0.001953
1.016000	0.000998
1.018000	-0.000224
1.020000	-0.001239
1.022000	-0.001656
1.024000	-0.001310
1.026000	-0.000360
1.028000	0.000831
1.030000	0.001858
1.032000	0.002289
1.034000	0.001957
1.036000	0.001012
1.038000	-0.000173
1.040000	-0.001186
1.042000	-0.001659
1.044000	-0.001329
1.046000	-0.000381
1.048000	0.000808
1.050000	0.001851
1.052000	0.002311
1.054000	0.001966
1.056000	0.001000
1.058000	-0.000193
1.060000	-0.001192
1.062000	-0.001640
1.064000	-0.001359
1.066000	-0.000397
1.068000	0.000787
1.070000	0.001836
1.072000	0.002265
1.074000	0.001915
1.076000	0.000961
1.078000	-0.000256
1.080000	-0.001286
1.082000	-0.001718
1.084000	-0.001407
1.086000	-0.000435
1.088000	0.000782
1.090000	0.001825
1.092000	0.002251
1.094000	0.001942
1.096000	0.000958
1.098000	-0.000274
1.100000	-0.001317
1.102000	-0.001721
1.104000	-0.001382
1.106000	-0.000397
1.108000	0.000807
1.110000	0.001817
1.112000	0.002263
1.114000	0.001945
1.116000	0.000982
1.118000	-0.000221
1.120000	-0.001272
1.122000	-0.001725
1.124000	-0.001411
1.126000	-0.000428
1.128000	0.000809
1.130000	0.001835
1.132000	0.002278
1.134000	0.001959
1.136000	0.001005
1.138000	-0.000187
1.140000	-0.001212
1.142000	-0.001634
1.144000	-0.001320
1.146000	-0.000358
1.148000	0.000843
1.150000	0.001854
1.152000	0.002291
1.154000	0.001957
1.156000	0.000994
1.158000	-0.000232
1.160000	-0.001259
1.162000	-0.001724
1.164000	-0.001413
1.166000	-0.000432
1.168000	0.000780
1.170000	0.001807
1.172000	0.002240
1.174000	0.001926
1.176000	0.000967
1.178000	-0.000229
1.180000	-0.001240
1.182000	-0.001688
1.184000	-0.001360
1.186000	-0.000416
1.188000	0.000792
1.190000	0.001804
1.192000	0.002242
1.194000	0.001938
1.196000	0.000994
1.198000	-0.000216
1.200000	-0.001249
1.202000	-0.001714
1.204000	-0.001391
1.206000	-0.000411
1.208000	0.000768
1.210000	0.001786
1.212000	0.002255
1.214000	0.001923
1.216000	0.000987
1.218000	-0.000222
1.220000	-0.001256
1.222000	-0.001669
1.224000	-0.001385
1.226000	-0.000436
1.228000	0.000794
1.230000	0.001814
1.232000	0.002264
1.234000	0.001945
1.236000	0.001000
1.238000	-0.000193
1.240000	-0.001224
1.242000	-0.001668
1.244000	-0.001347
1.246000	-0.000360
1.248000	0.000820
1.250000	0.001833
1.252000	0.002273
1.254000	0.001947
1.256000	0.000997
1.258000	-0.000236
1.260000	-0.001267
1.262000	-0.001704
1.264000	-0.001394
1.266000	-0.000441
1.268000	0.000761
1.270000	0.001833
1.272000	0.002285
1.274000	0.001934
1.276000	0.000964
1.278000	-0.000234
1.280000	-0.001253
1.282000	-0.001678
1.284000	-0.001346
1.286000	-0.000392
1.288000	0.000778
1.290000	0.001822
1.292000	0.002300
1.294000	0.001987
1.296000	0.001012
1.298000	-0.000197
1.300000	-0.001192
1.302000	-0.001657
1.304000	-0.001361
1.306000	-0.000420
1.308000	0.000790
1.310000	0.001831
1.312000	0.002260
1.314000	0.001920
1.316000	0.000951
1.318000	-0.000226
1.320000	-0.001255
1.322000	-0.001696
1.324000	-0.001348
1.326000	-0.000384
1.328000	0.000776
1.330000	0.001805
1.332000	0.002232
1.334000	0.001947
1.336000	0.001012
1.338000	-0.000207
1.340000	-0.001251
1.342000	-0.001745
1.344000	-0.001416
1.346000	-0.000446
1.348000	0.000758
1.350000	0.001788
1.352000	0.002227
1.354000	0.001886
1.356000	0.000957
1.358000	-0.000219
1.360000	-0.001260
1.362000	-0.001705
1.364000	-0.001370
1.366000	-0.000398
1.368000	0.000802
1.370000	0.001785
1.372000	0.002220
1.374000	0.001904
1.376000	0.000973
1.378000	-0.000248
1.380000	-0.001295
1.382000	-0.001689
1.384000	-0.001378
1.386000	-0.000428
1.388000	0.000778
1.390000	0.001794
1.392000	0.002228
1.394000	0.001911
1.396000	0.000956
1.398000	-0.000256
1.400000	-0.001246
1.402000	-0.001706
1.404000	-0.001408
1.406000	-0.000442
1.408000	0.000751
1.410000	0.001781
1.412000	0.002258
1.414000	0.001953
1.416000	0.000998
1.418000	-0.000256
1.420000	-0.001276
1.422000	-0.001702
1.424000	-0.001370
1.426000	-0.000439
1.428000	0.000761
1.430000	0.001794
1.432000	0.002259
1.434000	0.001938
1.436000	0.000993
1.438000	-0.000215
1.440000	-0.001256
1.442000	-0.001695
1.444000	-0.001383
1.446000	-0.000455
1.448000	0.000765
1.450000	0.001787
1.452000	0.002236
1.454000	0.001936
1.456000	0.000973
1.458000	-0.000237
1.460000	-0.001239
1.462000	-0.001668
1.464000	-0.001343
1.466000	-0.000384
1.468000	0.000802
1.470000	0.001833
1.472000	0.002289
1.474000	0.001963
1.476000	0.001012
1.478000	-0.000175
1.480000	-0.001222
1.482000	-0.001645
1.484000	-0.001309
1.486000	-0.000368
1.488000	0.000823
1.490000	0.001835
1.492000	0.002266
1.494000	0.001936
1.496000	0.000957
1.498000	-0.000253
1.500000	-0.001291
1.502000	-0.001736
1.504000	-0.001407
1.506000	-0.000434
1.508000	0.000737
1.510000	0.001761
1.512000	0.002218
1.514000	0.001919
1.516000	0.000970
1.518000	-0.000249
1.520000	-0.001291
1.522000	-0.001712
1.524000	-0.001355
1.526000	-0.000393
1.528000	0.000788
1.530000	0.001818
1.532000	0.002275
1.534000	0.001971
1.536000	0.001025
1.538000	-0.000188
1.540000	-0.001218
1.542000	-0.001680
1.544000	-0.001400
1.546000	-0.000453
1.548000	0.000770
1.550000	0.001788
1.552000	0.002245
1.554000	0.001930
1.556000	0.000993
1.558000	-0.000210
1.560000	-0.001241
1.562000	-0.001707
1.564000	-0.001359
1.566000	-0.000422
1.568000	0.000768
1.570000	0.001807
1.572000	0.002244
1.574000	0.001909
1.576000	0.000930
1.578000	-0.000278
1.580000	-0.001279
1.582000	-0.001717
1.584000	-0.001391
1.586000	-0.000448
1.588000	0.000757
1.590000	0.001814
1.592000	0.002246
1.594000	0.001943
1.596000	0.000974
1.598000	-0.000229
1.600000	-0.001221
1.602000	-0.001718
1.604000	-0.001391
1.606000	-0.000416
1.608000	0.000792
1.610000	0.001838
1.612000	0.002282
1.614000	0.001968
1.616000	0.001013
1.618000	-0.000209
1.620000	-0.001249
1.622000	-0.001711
1.624000	-0.001425
1.626000	-0.000446
1.628000	0.000787
1.630000	0.001781
1.632000	0.002211
1.634000	0.001906
1.636000	0.000949
1.638000	-0.000255
1.640000	-0.001253
1.642000	-0.001671
1.644000	-0.001360
1.646000	-0.000411
1.648000	0.000793
1.650000	0.001838
1.652000	0.002282
1.654000	0.001947
1.656000	0.000975
1.658000	-0.000209
1.660000	-0.001235
1.662000	-0.001688
1.664000	-0.001345
1.666000	-0.000410
1.668000	0.000802
1.670000	0.001848
1.672000	0.002289
1.674000	0.001994
1.676000	0.001030
1.678000	-0.000178
1.680000	-0.001203
1.682000	-0.001663
1.684000	-0.001376
1.686000	-0.000433
1.688000	0.000796
1.690000	0.001794
1.692000	0.002258
1.694000	0.001945
1.696000	0.000979
1.698000	-0.000248
1.700000	-0.001285
1.702000	-0.001732
1.704000	-0.001402
1.706000	-0.000452
1.708000	0.000750
1.710000	0.001796
1.712000	0.002249
1.714000	0.001945
1.716000	0.001000
1.718000	-0.000229
1.720000	-0.001245
1.722000	-0.001683
1.724000	-0.001385
1.726000	-0.000441
1.728000	0.000745
1.730000	0.001764
1.732000	0.002214
1.734000	0.001901
1.736000	0.000932
1.738000	-0.000271
1.740000	-0.001295
1.742000	-0.001729
1.744000	-0.001411
1.746000	-0.000439
1.748000	0.000768
1.750000	0.001825
1.752000	0.002275
1.754000	0.001943
1.756000	0.000962
1.758000	-0.000243
1.760000	-0.001248
1.762000	-0.001687
1.764000	-0.001373
1.766000	-0.000440
1.768000	0.000751
1.770000	0.001808
1.772000	0.002241
1.774000	0.001895
1.776000	0.000945
1.778000	-0.000253
1.780000	-0.001254
1.782000	-0.001695
1.784000	-0.001343
1.786000	-0.000421
1.788000	0.000784
1.790000	0.001819
1.792000	0.002247
1.794000	0.001926
1.796000	0.000964
1.798000	-0.000224
1.800000	-0.001241
1.802000	-0.001698
1.804000	-0.001373
1.806000	-0.000417
1.808000	0.000776
1.810000	0.001792
1.812000	0.002221
1.814000	0.001885
1.816000	0.000923
1.818000	-0.000252
1.820000	-0.001285
1.822000	-0.001721
1.824000	-0.001388
1.826000	-0.000454
1.828000	0.000732
1.830000	0.001770
1.832000	0.002234
1.834000	0.001924
1.836000	0.000961
1.838000	-0.000225
1.840000	-0.001246
1.842000	-0.001692
1.844000	-0.001401
1.846000	-0.000429
1.848000	0.000777
1.850000	0.001785
1.852000	0.002221
1.854000	0.001917
1.856000	0.000924
1.858000	-0.000261
1.860000	-0.001270
1.862000	-0.001739
1.864000	-0.001417
1.866000	-0.000466
1.868000	0.000705
1.870000	0.001733
1.872000	0.002223
1.874000	0.001910
1.876000	0.000988
1.878000	-0.000204
1.880000	-0.001243
1.882000	-0.001720
1.884000	-0.001411
1.886000	-0.000460
1.888000	0.000772
1.890000	0.001807
1.892000	0.002275
1.894000	0.001956
1.896000	0.000964
1.898000	-0.000246
1.900000	-0.001266
1.902000	-0.001713
1.904000	-0.001428
1.906000	-0.000465
1.908000	0.000774
1.910000	0.001791
1.912000	0.002227
1.914000	0.001920
1.916000	0.000957
1.918000	-0.000230
1.920000	-0.001242
1.922000	-0.001677
1.924000	-0.001383
1.926000	-0.000443
1.928000	0.000753
1.930000	0.001770
1.932000	0.002232
1.934000	0.001926
1.936000	0.000967
1.938000	-0.000240
1.940000	-0.001249
1.942000	-0.001712
1.944000	-0.001404
1.946000	-0.000465
1.948000	0.000713
1.950000	0.001771
1.952000	0.002223
1.954000	0.001919
1.956000	0.000980
1.958000	-0.000207
1.960000	-0.001216
1.962000	-0.001677
1.964000	-0.001383
1.966000	-0.000447
1.968000	0.000747
1.970000	0.001787
1.972000	0.002248
1.974000	0.001957
1.976000	0.001010
1.978000	-0.000186
1.980000	-0.001230
1.982000	-0.001698
1.984000	-0.001405
1.986000	-0.000445
1.988000	0.000786
1.990000	0.001819
1.992000	0.002235
1.994000	0.001912
1.996000	0.000998
1.998000	-0.000225
2.000000	-0.001276
2.002000	-0.001717
2.004000	-0.001417
2.006000	-0.000480
2.008000	0.000713
2.010000	0.001754
2.012000	0.002229
2.014000	0.001913
2.016000	0.000964
2.018000	-0.000269
2.020000	-0.001320
2.022000	-0.001762
2.024000	-0.001458
2.026000	-0.000499
2.028000	0.000722
2.030000	0.001752
2.032000	0.002195
2.034000	0.001915
2.036000	0.000976
2.038000	-0.000234
2.040000	-0.001252
2.042000	-0.001700
2.044000	-0.001388
2.046000	-0.000436
2.048000	0.000758
2.050000	0.001812
2.052000	0.002286
2.054000	0.001963
2.056000	0.001016
2.058000	-0.000191
2.060000	-0.001197
2.062000	-0.001689
2.064000	-0.001391
2.066000	-0.000411
2.068000	0.000749
2.070000	0.001769
2.072000	0.002239
2.074000	0.001945
2.076000	0.000998
2.078000	-0.000247
2.080000	-0.001292
2.082000	-0.001744
2.084000	-0.001440
2.086000	-0.000479
2.088000	0.000753
2.090000	0.001768
2.092000	0.002215
2.094000	0.001923
2.096000	0.000964
2.098000	-0.000225
2.100000	-0.001252
2.102000	-0.001721
2.104000	-0.001420
2.106000	-0.000497
2.108000	0.000687
2.110000	0.001701
2.112000	0.002176
2.114000	0.001915
2.116000	0.000982
2.118000	-0.000230
2.120000	-0.001259
2.122000	-0.001715
2.124000	-0.001411
2.126000	-0.000461
2.128000	0.000730
2.130000	0.001770
2.132000	0.002245
2.134000	0.001942
2.136000	0.000989
2.138000	-0.000211
2.140000	-0.001272
2.142000	-0.001743
2.144000	-0.001457
2.146000	-0.000516
2.148000	0.000708
2.150000	0.001767
2.152000	0.002254
2.154000	0.001985
2.156000	0.001032
2.158000	-0.000168
2.160000	-0.001227
2.162000	-0.001663
2.164000	-0.001360
2.166000	-0.000428
2.168000	0.000759
2.170000	0.001762
2.172000	0.002259
2.174000	0.001944
2.176000	0.000968
2.178000	-0.000204
2.180000	-0.001246
2.182000	-0.001717
2.184000	-0.001422
2.186000	-0.000495
2.188000	0.000699
2.190000	0.001730
2.192000	0.002216
2.194000	0.001919
2.196000	0.000995
2.198000	-0.000200
2.200000	-0.001245
2.202000	-0.001724
2.204000	-0.001403
2.206000	-0.000432
2.208000	0.000768
2.210000	0.001827
2.212000	0.002284
2.214000	0.001985
2.216000	0.001049
2.218000	-0.000180
2.220000	-0.001217
2.222000	-0.001678
2.224000	-0.001382
2.226000	-0.000427
2.228000	0.000746
2.230000	0.001783
2.232000	0.002273
2.234000	0.002013
2.236000	0.001080
2.238000	-0.000124
2.240000	-0.001165
2.242000	-0.001663
2.244000	-0.001382
2.246000	-0.000439
2.248000	0.000733
2.250000	0.001746
2.252000	0.002203
2.254000	0.001924
2.256000	0.001009
2.258000	-0.000211
2.260000	-0.001247
2.262000	-0.001720
2.264000	-0.001473
2.266000	-0.000511
2.268000	0.000696
2.270000	0.001732
2.272000	0.002226
2.274000	0.001969
2.276000	0.001030
2.278000	-0.000197
2.280000	-0.001236
2.282000	-0.001726
2.284000	-0.001440
2.286000	-0.000498
2.288000	0.000725
2.290000	0.001782
2.292000	0.002264
2.294000	0.001965
2.296000	0.001020
2.298000	-0.000175
2.300000	-0.001211
2.302000	-0.001693
2.304000	-0.001434
2.306000	-0.000489
2.308000	0.000740
2.310000	0.001799
2.312000	0.002277
2.314000	0.001992
2.316000	0.001055
2.318000	-0.000161
2.320000	-0.001242
2.322000	-0.001729
2.324000	-0.001444
2.326000	-0.000521
2.328000	0.000699
2.330000	0.001736
2.332000	0.002205
2.334000	0.001955
2.336000	0.001048
2.338000	-0.000134
2.340000	-0.001173
2.342000	-0.001686
2.344000	-0.001425
2.346000	-0.000478
2.348000	0.000732
2.350000	0.001785
2.352000	0.002258
2.354000	0.001984
2.356000	0.001093
2.358000	-0.000130
2.360000	-0.001185
2.362000	-0.001677
2.364000	-0.001439
2.366000	-0.000515
2.368000	0.000700
2.370000	0.001739
2.372000	0.002211
2.374000	0.001926
2.376000	0.001006
2.378000	-0.000172
2.380000	-0.001197
2.382000	-0.001706
2.384000	-0.001433
2.386000	-0.000497
2.388000	0.000702
2.390000	0.001756
2.392000	0.002259
2.394000	0.001996
2.396000	0.001055
2.398000	-0.000161
2.400000	-0.001221
2.402000	-0.001693
2.404000	-0.001410
2.406000	-0.000507
2.408000	0.000720
2.410000	0.001754
2.412000	0.002226
2.414000	0.001938
2.416000	0.001024
2.418000	-0.000154
2.420000	-0.001205
2.422000	-0.001683
2.424000	-0.001417
2.426000	-0.000501
2.428000	0.000728
2.430000	0.001775
2.432000	0.002276
2.434000	0.002004
2.436000	0.001059
2.438000	-0.000141
2.440000	-0.001196
2.442000	-0.001692
2.444000	-0.001434
2.446000	-0.000522
2.448000	0.000699
2.450000	0.001776
2.452000	0.002275
2.454000	0.002035
2.456000	0.001118
2.458000	-8.583069E-5
2.460000	-0.001150
2.462000	-0.001616
2.464000	-0.001349
2.466000	-0.000435
2.468000	0.000765
2.470000	0.001799
2.472000	0.002290
2.474000	0.002005
2.476000	0.001065
2.478000	-0.000108
2.480000	-0.001184
2.482000	-0.001681
2.484000	-0.001419
2.486000	-0.000521
2.488000	0.000688
2.490000	0.001729
2.492000	0.002230
2.494000	0.001969
2.496000	0.001060
2.498000	-0.000169
2.500000	-0.001214
2.502000	-0.001686
2.504000	-0.001405
2.506000	-0.000510
2.508000	0.000679
2.510000	0.001750
2.512000	0.002266
2.514000	0.002004
2.516000	0.001043
2.518000	-0.000147
2.520000	-0.001209
2.522000	-0.001692
2.524000	-0.001420
2.526000	-0.000498
2.528000	0.000703
2.530000	0.001738
2.532000	0.002209
2.534000	0.001931
2.536000	0.001029
2.538000	-0.000151
2.540000	-0.001209
2.542000	-0.001692
2.544000	-0.001441
2.546000	-0.000515
2.548000	0.000684
2.550000	0.001718
2.552000	0.002229
2.554000	0.001971
2.556000	0.001035
2.558000	-0.000161
2.560000	-0.001224
2.562000	-0.001704
2.564000	-0.001447
2.566000	-0.000523
2.568000	0.000706
2.570000	0.001763
2.572000	0.002282
2.574000	0.002037
2.576000	0.001098
2.578000	-0.000106
2.580000	-0.001184
2.582000	-0.001709
2.584000	-0.001450
2.586000	-0.000536
2.588000	0.000669
2.590000	0.001731
2.592000	0.002244
2.594000	0.001991
2.596000	0.001100
2.598000	-0.000119
2.600000	-0.001234
2.602000	-0.001717
2.604000	-0.001490
2.606000	-0.000553
2.608000	0.000656
2.610000	0.001687
2.612000	0.002199
2.614000	0.001942
2.616000	0.001056
2.618000	-0.000120
2.620000	-0.001175
2.622000	-0.001696
2.624000	-0.001442
2.626000	-0.000533
2.628000	0.000657
2.630000	0.001732
2.632000	0.002265
2.634000	0.002033
2.636000	0.001111
2.638000	-8.344650E-5
2.640000	-0.001172
2.642000	-0.001706
2.644000	-0.001452
2.646000	-0.000553
2.648000	0.000666
2.650000	0.001721
2.652000	0.002260
2.654000	0.002030
2.656000	0.001117
2.658000	-0.000105
2.660000	-0.001169
2.662000	-0.001701
2.664000	-0.001463
2.666000	-0.000567
2.668000	0.000631
2.670000	0.001669
2.672000	0.002193
2.674000	0.001966
2.676000	0.001078
2.678000	-0.000114
2.680000	-0.001154
2.682000	-0.001674
2.684000	-0.001436
2.686000	-0.000536
2.688000	0.000652
2.690000	0.001740
2.692000	0.002241
2.694000	0.002000
2.696000	0.001085
2.698000	-0.000123
2.700000	-0.001177
2.702000	-0.001701
2.704000	-0.001465
2.706000	-0.000548
2.708000	0.000633
2.710000	0.001743
2.712000	0.002244
2.714000	0.002019
2.716000	0.001144
2.718000	-6.794930E-5
2.720000	-0.001148
2.722000	-0.001701
2.724000	-0.001483
2.726000	-0.000587
2.728000	0.000619
2.730000	0.001708
2.732000	0.002239
2.734000	0.001994
2.736000	0.001105
2.738000	-6.198883E-5
2.740000	-0.001111
2.742000	-0.001622
2.744000	-0.001413
2.746000	-0.000519
2.748000	0.000652
2.750000	0.001701
2.752000	0.002226
2.754000	0.001978
2.756000	0.001099
2.758000	-0.000101
2.760000	-0.001177
2.762000	-0.001680
2.764000	-0.001452
2.766000	-0.000575
2.768000	0.000629
2.770000	0.001714
2.772000	0.002233
2.774000	0.002010
2.776000	0.001147
2.778000	-8.106232E-5
2.780000	-0.001174
2.782000	-0.001698
2.784000	-0.001476
2.786000	-0.000567
2.788000	0.000623
2.790000	0.001709
2.792000	0.002249
2.794000	0.002031
2.796000	0.001132
2.798000	-5.960464E-5
2.800000	-0.001091
2.802000	-0.001634
2.804000	-0.001450
2.806000	-0.000566
2.808000	0.000627
2.810000	0.001708
2.812000	0.002249
2.814000	0.002013
2.816000	0.001112
2.818000	-0.000116
2.820000	-0.001189
2.822000	-0.001704
2.824000	-0.001453
2.826000	-0.000578
2.828000	0.000622
2.830000	0.001643
2.832000	0.002172
2.834000	0.001979
2.836000	0.001100
2.838000	-8.702278E-5
2.840000	-0.001155
2.842000	-0.001670
2.844000	-0.001466
2.846000	-0.000577
2.848000	0.000587
2.850000	0.001674
2.852000	0.002216
2.854000	0.001987
2.856000	0.001107
2.858000	-8.821487E-5
2.860000	-0.001171
2.862000	-0.001714
2.864000	-0.001485
2.866000	-0.000591
2.868000	0.000608
2.870000	0.001684
2.872000	0.002222
2.874000	0.001996
2.876000	0.001129
2.878000	-6.914139E-5
2.880000	-0.001138
2.882000	-0.001686
2.884000	-0.001476
2.886000	-0.000610
2.888000	0.000592
2.890000	0.001737
2.892000	0.002289
2.894000	0.002080
2.896000	0.001199
2.898000	1.072884E-5
2.900000	-0.001090
2.902000	-0.001653
2.904000	-0.001440
2.906000	-0.000566
2.908000	0.000607
2.910000	0.001673
2.912000	0.002235
2.914000	0.002028
2.916000	0.001125
2.918000	-3.814697E-5
2.920000	-0.001097
2.922000	-0.001656
2.924000	-0.001476
2.926000	-0.000594
2.928000	0.000582
2.930000	0.001657
2.932000	0.002215
2.934000	0.002016
2.936000	0.001128
2.938000	-7.271767E-5
2.940000	-0.001183
2.942000	-0.001730
2.944000	-0.001494
2.946000	-0.000620
2.948000	0.000575
2.950000	0.001663
2.952000	0.002208
2.954000	0.002034
2.956000	0.001147
2.958000	-5.841255E-5
2.960000	-0.001130
2.962000	-0.001681
2.964000	-0.001472
2.966000	-0.000600
2.968000	0.000581
2.970000	0.001665
2.972000	0.002232
2.974000	0.002010
2.976000	0.001132
2.978000	-6.914139E-5
2.980000	-0.001142
2.982000	-0.001669
2.984000	-0.001483
2.986000	-0.000631
2.988000	0.000566
2.990000	0.001652
2.992000	0.002211
2.994000	0.001997
2.996000	0.001152
2.998000	-1.192093E-5
3.000000	-0.001118
3.002000	-0.001652
3.004000	-0.001473
3.006000	-0.000618
3.008000	0.000565
3.010000	0.001656
3.012000	0.002229
3.014000	0.002016
3.016000	0.001116
3.018000	-5.960464E-5
3.020000	-0.001148
3.022000	-0.001700
3.024000	-0.001485
3.026000	-0.000607
3.028000	0.000567
3.030000	0.001631
3.032000	0.002178
3.034000	0.002016
3.036000	0.001162
3.038000	-2.741814E-5
3.040000	-0.001105
3.042000	-0.001663
3.044000	-0.001495
3.046000	-0.000623
3.048000	0.000587
3.050000	0.001664
3.052000	0.002246
3.054000	0.002071
3.056000	0.001193
3.058000	-1.072884E-5
3.060000	-0.001092
3.062000	-0.001670
3.064000	-0.001484
3.066000	-0.000600
3.068000	0.000609
3.070000	0.001690
3.072000	0.002265
3.074000	0.002109
3.076000	0.001231
3.078000	9.536743E-6
3.080000	-0.001072
3.082000	-0.001664
3.084000	-0.001508
3.086000	-0.000634
3.088000	0.000563
3.090000	0.001657
3.092000	0.002230
3.094000	0.002061
3.096000	0.001210
3.098000	1.192093E-6
3.100000	-0.001097
3.102000	-0.001657
3.104000	-0.001493
3.106000	-0.000640
3.108000	0.000557
3.110000	0.001663
3.112000	0.002241
3.114000	0.002065
3.116000	0.001220
3.118000	3.814697E-5
3.120000	-0.001093
3.122000	-0.001662
3.124000	-0.001476
3.126000	-0.000620
3.128000	0.000559
3.130000	0.001662
3.132000	0.002234
3.134000	0.002047
3.136000	0.001218
3.138000	5.960464E-6
3.140000	-0.001104
3.142000	-0.001689
3.144000	-0.001526
3.146000	-0.000671
3.148000	0.000548
3.150000	0.001653
3.152000	0.002245
3.154000	0.002073
3.156000	0.001202
3.158000	1.668930E-5
3.160000	-0.001105
3.162000	-0.001671
3.164000	-0.001479
3.166000	-0.000610
3.168000	0.000565
3.170000	0.001653
3.172000	0.002259
3.174000	0.002069
3.176000	0.001211
3.178000	-1.907349E-5
3.180000	-0.001132
3.182000	-0.001670
3.184000	-0.001494
3.186000	-0.000652
3.188000	0.000534
3.190000	0.001628
3.192000	0.002232
3.194000	0.002085
3.196000	0.001216
3.198000	-8.344650E-6
3.200000	-0.001092
3.202000	-0.001658
3.204000	-0.001510
3.206000	-0.000679
3.208000	0.000517
3.210000	0.001634
3.212000	0.002234
3.214000	0.002058
3.216000	0.001206
3.218000	7.152557E-6
3.220000	-0.001118
3.222000	-0.001686
3.224000	-0.001523
3.226000	-0.000691
3.228000	0.000495
3.230000	0.001588
3.232000	0.002192
3.234000	0.002034
3.236000	0.001189
3.238000	-1.192093E-5
3.240000	-0.001098
3.242000	-0.001673
3.244000	-0.001529
3.246000	-0.000695
3.248000	0.000489
3.250000	0.001577
3.252000	0.002177
3.254000	0.002022
3.256000	0.001209
3.258000	1.311302E-5
3.260000	-0.001088
3.262000	-0.001676
3.264000	-0.001532
3.266000	-0.000697
3.268000	0.000483
3.270000	0.001609
3.272000	0.002260
3.274000	0.002112
3.276000	0.001237
3.278000	2.264977E-5
3.280000	-0.001086
3.282000	-0.001677
3.284000	-0.001502
3.286000	-0.000688
3.288000	0.000495
3.290000	0.001633
3.292000	0.002276
3.294000	0.002133
3.296000	0.001283
3.298000	6.318092E-5
3.300000	-0.001036
3.302000	-0.001625
3.304000	-0.001494
3.306000	-0.000677
3.308000	0.000507
3.310000	0.001584
3.312000	0.002187
3.314000	0.002054
3.316000	0.001258
3.318000	7.510185E-5
3.320000	-0.001070
3.322000	-0.001674
3.324000	-0.001537
3.326000	-0.000707
3.328000	0.000488
3.330000	0.001581
3.332000	0.002221
3.334000	0.002096
3.336000	0.001260
3.338000	5.602837E-5
3.340000	-0.001044
3.342000	-0.001659
3.344000	-0.001525
3.346000	-0.000677
3.348000	0.000480
3.350000	0.001582
3.352000	0.002211
3.354000	0.002073
3.356000	0.001251
3.358000	5.960464E-5
3.360000	-0.001024
3.362000	-0.001636
3.364000	-0.001503
3.366000	-0.000696
3.368000	0.000507
3.370000	0.001584
3.372000	0.002191
3.374000	0.002072
3.376000	0.001249
3.378000	3.218651E-5
3.380000	-0.001070
3.382000	-0.001656
3.384000	-0.001518
3.386000	-0.000689
3.388000	0.000483
3.390000	0.001559
3.392000	0.002202
3.394000	0.002093
3.396000	0.001277
3.398000	4.768372E-5
3.400000	-0.001068
3.402000	-0.001669
3.404000	-0.001546
3.406000	-0.000721
3.408000	0.000477
3.410000	0.001585
3.412000	0.002177
3.414000	0.002042
3.416000	0.001249
3.418000	8.106232E-5
3.420000	-0.001017
3.422000	-0.001632
3.424000	-0.001541
3.426000	-0.000734
3.428000	0.000433
3.430000	0.001574
3.432000	0.002211
3.434000	0.002103
3.436000	0.001284
3.438000	7.629395E-5
3.440000	-0.001023
3.442000	-0.001644
3.444000	-0.001531
3.446000	-0.000768
3.448000	0.000436
3.450000	0.001577
3.452000	0.002213
3.454000	0.002093
3.456000	0.001285
3.458000	0.000120
3.460000	-0.001005
3.462000	-0.001640
3.464000	-0.001531
3.466000	-0.000719
3.468000	0.000468
3.470000	0.001602
3.472000	0.002242
3.474000	0.002096
3.476000	0.001277
3.478000	8.463860E-5
3.480000	-0.001049
3.482000	-0.001665
3.484000	-0.001533
3.486000	-0.000714
3.488000	0.000478
3.490000	0.001601
3.492000	0.002246
3.494000	0.002143
3.496000	0.001338
3.498000	0.000166
3.500000	-0.000927
3.502000	-0.001590
3.504000	-0.001527
3.506000	-0.000708
3.508000	0.000466
3.510000	0.001572
3.512000	0.002191
3.514000	0.002077
3.516000	0.001287
3.518000	0.000114
3.520000	-0.001018
3.522000	-0.001643
3.524000	-0.001526
3.526000	-0.000707
3.528000	0.000440
3.530000	0.001577
3.532000	0.002259
3.534000	0.002148
3.536000	0.001348
3.538000	0.000149
3.540000	-0.000973
3.542000	-0.001607
3.544000	-0.001509
3.546000	-0.000722
3.548000	0.000480
3.550000	0.001594
3.552000	0.002180
3.554000	0.002087
3.556000	0.001303
3.558000	0.000108
3.560000	-0.000999
3.562000	-0.001657
3.564000	-0.001583
3.566000	-0.000767
3.568000	0.000440
3.570000	0.001545
3.572000	0.002223
3.574000	0.002131
3.576000	0.001335
3.578000	0.000154
3.580000	-0.000968
3.582000	-0.001615
3.584000	-0.001531
3.586000	-0.000746
3.588000	0.000457
3.590000	0.001562
3.592000	0.002223
3.594000	0.002129
3.596000	0.001318
3.598000	0.000153
3.600000	-0.000963
3.602000	-0.001633
3.604000	-0.001552
3.606000	-0.000759
3.608000	0.000405
3.610000	0.001528
3.612000	0.002233
3.614000	0.002172
3.616000	0.001352
3.618000	0.000179
3.620000	-0.000938
3.622000	-0.001597
3.624000	-0.001549
3.626000	-0.000753
3.628000	0.000391
3.630000	0.001493
3.632000	0.002159
3.634000	0.002106
3.636000	0.001336
3.638000	0.000142
3.640000	-0.000964
3.642000	-0.001652
3.644000	-0.001601
3.646000	-0.000824
3.648000	0.000362
3.650000	0.001526
3.652000	0.002218
3.654000	0.002170
3.656000	0.001392
3.658000	0.000179
3.660000	-0.000960
3.662000	-0.001631
3.664000	-0.001569
3.666000	-0.000815
3.668000	0.000353
3.670000	0.001491
3.672000	0.002187
3.674000	0.002096
3.676000	0.001321
3.678000	0.000156
3.680000	-0.000998
3.682000	-0.001645
3.684000	-0.001574
3.686000	-0.000799
3.688000	0.000387
3.690000	0.001534
3.692000	0.002198
3.694000	0.002139
3.696000	0.001376
3.698000	0.000196
3.700000	-0.000952
3.702000	-0.001633
3.704000	-0.001562
3.706000	-0.000795
3.708000	0.000376
3.710000	0.001538
3.712000	0.002217
3.714000	0.002118
3.716000	0.001349
3.718000	0.000192
3.720000	-0.000986
3.722000	-0.001674
3.724000	-0.001622
3.726000	-0.000844
3.728000	0.000328
3.730000	0.001463
3.732000	0.002149
3.734000	0.002104
3.736000	0.001347
3.738000	0.000166
3.740000	-0.000985
3.742000	-0.001655
3.744000	-0.001597
3.746000	-0.000831
3.748000	0.000328
3.750000	0.001472
3.752000	0.002174
3.754000	0.002115
3.756000	0.001374
3.758000	0.000204
3.760000	-0.000921
3.762000	-0.001626
3.764000	-0.001614
3.766000	-0.000830
3.768000	0.000356
3.770000	0.001502
3.772000	0.002191
3.774000	0.002176
3.776000	0.001421
3.778000	0.000246
3.780000	-0.000880
3.782000	-0.001582
3.784000	-0.001549
3.786000	-0.000782
3.788000	0.000368
3.790000	0.001495
3.792000	0.002199
3.794000	0.002134
3.796000	0.001364
3.798000	0.000184
3.800000	-0.000942
3.802000	-0.001624
3.804000	-0.001576
3.806000	-0.000823
3.808000	0.000335
3.810000	0.001476
3.812000	0.002179
3.814000	0.002149
3.816000	0.001365
3.818000	0.000179
3.820000	-0.000941
3.822000	-0.001631
3.824000	-0.001590
3.826000	-0.000861
3.828000	0.000281
3.830000	0.001436
3.832000	0.002156
3.834000	0.002154
3.836000	0.001404
3.838000	0.000240
3.840000	-0.000938
3.842000	-0.001624
3.844000	-0.001609
3.846000	-0.000880
3.848000	0.000284
3.850000	0.001460
3.852000	0.002151
3.854000	0.002124
3.856000	0.001363
3.858000	0.000205
3.860000	-0.000924
3.862000	-0.001652
3.864000	-0.001611
3.866000	-0.000843
3.868000	0.000306
3.870000	0.001457
3.872000	0.002166
3.874000	0.002151
3.876000	0.001426
3.878000	0.000286
3.880000	-0.000845
3.882000	-0.001599
3.884000	-0.001576
3.886000	-0.000838
3.888000	0.000314
3.890000	0.001440
3.892000	0.002124
3.894000	0.002128
3.896000	0.001401
3.898000	0.000242
3.900000	-0.000899
3.902000	-0.001615
3.904000	-0.001614
3.906000	-0.000886
3.908000	0.000273
3.910000	0.001407
3.912000	0.002154
3.914000	0.002130
3.916000	0.001435
3.918000	0.000279
3.920000	-0.000859
3.922000	-0.001572
3.924000	-0.001568
3.926000	-0.000834
3.928000	0.000291
3.930000	0.001454
3.932000	0.002187
3.934000	0.002189
3.936000	0.001441
3.938000	0.000272
3.940000	-0.000874
3.942000	-0.001605
3.944000	-0.001631
3.946000	-0.000887
3.948000	0.000280
3.950000	0.001429
3.952000	0.002167
3.954000	0.002146
3.956000	0.001403
3.958000	0.000250
3.960000	-0.000895
3.962000	-0.001624
3.964000	-0.001612
3.966000	-0.000882
3.968000	0.000265
3.970000	0.001432
3.972000	0.002170
3.974000	0.002166
3.976000	0.001465
3.978000	0.000287
3.980000	-0.000864
3.982000	-0.001574
3.984000	-0.001557
3.986000	-0.000825
3.988000	0.000300
3.990000	0.001427
3.992000	0.002180
3.994000	0.002178
3.996000	0.001434
3.998000	0.000290

